{
  "resourceType": "Bundle",
  "id": "eve-nextdueexists_no_act-determinedue",
  "type": "collection",
  "entry": [
    {
      "resource": {
        "resourceType": "Patient",
        "id": "b1db4fe4-d323-4575-95f6-5e08923fd302",
        "name": [
          {
            "given": [
              "Joanne"
            ],
            "family": "Smith"
          }
        ],
        "gender": "other",
        "birthDate": "1970-01-01",
        "extension": [
          {
            "url": "http://hl7.org/fhir/us/core/StructureDefinition/us-core-birthsex",
            "valueCode": "F"
          }
        ]
      }
    },
    {
      "resource": {
        "resourceType": "CarePlan",
        "id": "0cb07c96-c23e-4d37-bf54-8220bdcf3621",
        "subject": {
          "reference": "Patient/b1db4fe4-d323-4575-95f6-5e08923fd302"
        },
        "status": "active",
        "created": "2023-06-01",
        "category": [
          {
            "coding": [
              {
                "system": "http://snomed.info/sct",
                "code": "268548003",
                "display": "Screening for malignant neoplasm of large intestine (procedure)"
              }
            ]
          }
        ],
        "activity": [
          {
            "reference": {
              "reference": "RequestGroup/RequestGroup-1"
            }
          }
        ]
      }
    },
    {
      "resource": {
        "resourceType": "RequestGroup",
        "id": "RequestGroup-1",
        "subject": {
          "reference": "Patient/b1db4fe4-d323-4575-95f6-5e08923fd302"
        },
        "status": "active",
        "intent": "order"
      }
    }
  ]
}