{
  "resourceType": "Bundle",
  "id": "eve-nextdueexists_yes_eve-DetermineIfDueForScreening_due_act-orderTest",
  "type": "collection",
  "entry": [
    {
      "resource": {
        "resourceType": "Patient",
        "id": "f3809172-a439-42f2-a969-d281ba1caa63",
        "name": [
          {
            "given": [
              "Joanne"
            ],
            "family": "Smith"
          }
        ],
        "gender": "other",
        "birthDate": "1971-01-01",
        "extension": [
          {
            "url": "http://hl7.org/fhir/us/core/StructureDefinition/us-core-birthsex",
            "valueCode": "F"
          }
        ]
      }
    },
    {
      "resource": {
        "resourceType": "CarePlan",
        "id": "a600d670-4b7c-476b-8ce3-ff37638e187b",
        "subject": {
          "reference": "Patient/f3809172-a439-42f2-a969-d281ba1caa63"
        },
        "status": "active",
        "created": "2024-06-01",
        "category": [
          {
            "coding": [
              {
                "system": "http://snomed.info/sct",
                "code": "268548003",
                "display": "Screening for malignant neoplasm of large intestine (procedure)"
              }
            ]
          }
        ],
        "activity": [
          {
            "reference": {
              "reference": "RequestGroup/RequestGroup-1"
            }
          }
        ]
      }
    },
    {
      "resource": {
        "resourceType": "RequestGroup",
        "id": "RequestGroup-1",
        "subject": {
          "reference": "Patient/f3809172-a439-42f2-a969-d281ba1caa63"
        },
        "status": "active",
        "intent": "order",
        "action": [
          {
            "code": [
              {
                "coding": [
                  {
                    "system": "http://loinc.org",
                    "code": "29771-3",
                    "display": "Hemoglobin.gastrointestinal [Presence] in Stool by Immunologic method"
                  }
                ]
              }
            ],
            "timingTiming": {
              "event": [
                "2025-01-01"
              ]
            }
          }
        ]
      }
    }
  ]
}