{
  "resourceType": "Bundle",
  "id": "eve-nextdueexists_yes_eve-DetermineIfDueForScreening_due_act-orderTest",
  "type": "collection",
  "entry": [
    {
      "resource": {
        "resourceType": "Patient",
        "id": "e88815ef-e80e-4f11-ba79-0d4ccb413c78",
        "name": [
          {
            "given": [
              "Joanne"
            ],
            "family": "Smith"
          }
        ],
        "gender": "other",
        "birthDate": "1970-01-01",
        "extension": [
          {
            "url": "http://hl7.org/fhir/us/core/StructureDefinition/us-core-birthsex",
            "valueCode": "F"
          }
        ]
      }
    },
    {
      "resource": {
        "resourceType": "CarePlan",
        "id": "153748d4-d8cc-4d97-a2c3-6464ee24c28b",
        "subject": {
          "reference": "Patient/e88815ef-e80e-4f11-ba79-0d4ccb413c78"
        },
        "status": "active",
        "created": "2023-06-01",
        "category": [
          {
            "coding": [
              {
                "system": "http://snomed.info/sct",
                "code": "268548003",
                "display": "Screening for malignant neoplasm of large intestine (procedure)"
              }
            ]
          }
        ],
        "activity": [
          {
            "reference": {
              "reference": "RequestGroup/RequestGroup-1"
            }
          }
        ]
      }
    },
    {
      "resource": {
        "resourceType": "RequestGroup",
        "id": "RequestGroup-1",
        "subject": {
          "reference": "Patient/e88815ef-e80e-4f11-ba79-0d4ccb413c78"
        },
        "status": "active",
        "intent": "order",
        "action": [
          {
            "code": [
              {
                "coding": [
                  {
                    "system": "http://loinc.org",
                    "code": "29771-3",
                    "display": "Hemoglobin.gastrointestinal [Presence] in Stool by Immunologic method"
                  }
                ]
              }
            ],
            "timingTiming": {
              "event": [
                "2024-01-01"
              ]
            }
          }
        ]
      }
    }
  ]
}