{
  "resourceType": "Bundle",
  "id": "eve-nextdueexists_yes_eve-DetermineIfDueForScreening_notdue_end-1",
  "type": "collection",
  "entry": [
    {
      "resource": {
        "resourceType": "Patient",
        "id": "b95147cf-f9ae-4f9f-aa0c-48ef3024b1a4",
        "name": [
          {
            "given": [
              "Joanne"
            ],
            "family": "Smith"
          }
        ],
        "gender": "other",
        "birthDate": "1970-01-01",
        "extension": [
          {
            "url": "http://hl7.org/fhir/us/core/StructureDefinition/us-core-birthsex",
            "valueCode": "F"
          }
        ]
      }
    },
    {
      "resource": {
        "resourceType": "CarePlan",
        "id": "45caf34b-8041-46b5-b297-1f55590b51f9",
        "subject": {
          "reference": "Patient/b95147cf-f9ae-4f9f-aa0c-48ef3024b1a4"
        },
        "status": "active",
        "created": "2023-06-01",
        "category": [
          {
            "coding": [
              {
                "system": "http://snomed.info/sct",
                "code": "268548003",
                "display": "Screening for malignant neoplasm of large intestine (procedure)"
              }
            ]
          }
        ],
        "activity": [
          {
            "reference": {
              "reference": "RequestGroup/RequestGroup-1"
            }
          }
        ]
      }
    },
    {
      "resource": {
        "resourceType": "RequestGroup",
        "id": "RequestGroup-1",
        "subject": {
          "reference": "Patient/b95147cf-f9ae-4f9f-aa0c-48ef3024b1a4"
        },
        "status": "active",
        "intent": "order",
        "action": [
          {
            "code": [
              {
                "coding": [
                  {
                    "system": "http://loinc.org",
                    "code": "29771-3",
                    "display": "Hemoglobin.gastrointestinal [Presence] in Stool by Immunologic method"
                  }
                ]
              }
            ],
            "timingTiming": {
              "event": [
                "2024-12-01"
              ]
            }
          }
        ]
      }
    }
  ]
}