{
  "resourceType": "Bundle",
  "id": "eve-nextdueexists_no_act-determinedue",
  "type": "collection",
  "entry": [
    {
      "resource": {
        "resourceType": "Patient",
        "id": "07d20249-b2c1-49d3-9e8c-b521e2e96dd6",
        "name": [
          {
            "given": [
              "Joanne"
            ],
            "family": "Smith"
          }
        ],
        "gender": "other",
        "birthDate": "1971-01-01",
        "extension": [
          {
            "url": "http://hl7.org/fhir/us/core/StructureDefinition/us-core-birthsex",
            "valueCode": "F"
          }
        ]
      }
    },
    {
      "resource": {
        "resourceType": "CarePlan",
        "id": "bdca3e69-a092-481c-892c-f7aa07d17bbb",
        "subject": {
          "reference": "Patient/07d20249-b2c1-49d3-9e8c-b521e2e96dd6"
        },
        "status": "active",
        "created": "2024-06-01",
        "category": [
          {
            "coding": [
              {
                "system": "http://snomed.info/sct",
                "code": "268548003",
                "display": "Screening for malignant neoplasm of large intestine (procedure)"
              }
            ]
          }
        ],
        "activity": [
          {
            "reference": {
              "reference": "RequestGroup/RequestGroup-1"
            }
          }
        ]
      }
    },
    {
      "resource": {
        "resourceType": "RequestGroup",
        "id": "RequestGroup-1",
        "subject": {
          "reference": "Patient/07d20249-b2c1-49d3-9e8c-b521e2e96dd6"
        },
        "status": "active",
        "intent": "order"
      }
    }
  ]
}